pre_trial.thisRepN,pre_trial.thisTrialN,pre_trial.thisN,pre_trial.thisIndex,run.thisRepN,run.thisTrialN,run.thisN,run.thisIndex,QA_block.thisRepN,QA_block.thisTrialN,QA_block.thisN,QA_block.thisIndex,QA_trial.thisRepN,QA_trial.thisTrialN,QA_trial.thisN,QA_trial.thisIndex,Pause_cont.started,Pause_cont.stopped,RS_intro_title.started,RS_intro_title.stopped,RS_intro_text.started,RS_intro_text.stopped,RS_intro_audio.started,RS_intro_audio.stopped,RS_rec_text.started,RS_rec_text.stopped,RS_rec_cont.started,RS_rec_cont.stopped,QA_intro_title.started,QA_intro_title.stopped,QA_intro_text.started,QA_intro_text.stopped,QA_intro_audio.started,QA_intro_audio.stopped,QA_intro_cont.started,QA_intro_cont.stopped,QA_rec_text.started,QA_rec_text.stopped,QA_rec_beep_hint.started,QA_rec_beep_hint.stopped,QA_rec_question.started,QA_rec_question.stopped,QA_rec_beep_start.started,QA_rec_beep_start.stopped,QA_rec_beep_end.started,QA_rec_beep_end.stopped,QA_rec_break.started,QA_rec_break.stopped,filename,participant,session,First language,German level,Full_screen,Instruction,Cali_pre,Resting_State,Fade_in_out,QA,Pause,Cali_post,End,Breakpoint_Cali_pre_trial,Breakpoint_Run,Breakpoint_RS_block,Breakpoint_QA_block,Breakpoint_QA_trial,Breakpoint_Cali_post_trial,date,expName,psychopyVersion,frameRate,
,,,,2,0,2,0,0,0,0,0,0,0,0,0,447.03946805000305,None,252.11293697357178,None,252.11293697357178,None,252.11290459632875,None,432.13621497154236,442.13696098327637,443.9202709197998,None,459.03744292259216,499.0396730899811,459.03744292259216,499.0396730899811,459.0211036682129,None,499.4399869441986,None,501.89222407341003,None,501.8754988193512,503.8900890350342,504.27344970703126,None,507.8241277217865,None,528.4745507717132,None,529.8747410774231,531.8772099018097,./data/Subject_01/Session_01/Exp_data/rec_QA_run_02_block_000_trial_000.wav,01,01,,A1,True,False,False,True,True,True,True,True,True,No,2,No,No,No,No,2020_Mär_13_1753,nibs_stage_1,3.2.3,59.99482199536268,
,,,,2,0,2,0,0,0,0,0,1,0,1,0,,,,,,,,,,,,,,,,,,,,,531.9103169441223,None,531.8938715934753,533.9083380699158,534.2916067123413,537.4464468955994,537.8461726188659,None,558.4927046775817,None,559.8929479122162,None,./data/Subject_01/Session_01/Exp_data/rec_QA_run_02_block_000_trial_001.wav,01,01,,A1,True,False,False,True,True,True,True,True,True,No,2,No,No,No,No,2020_Mär_13_1753,nibs_stage_1,3.2.3,59.99482199536268,
,,,,2,0,2,0,0,0,0,0,2,0,2,0,,,,,,,,,,,,,,,,,,,,,561.8964281082153,None,561.8807156562805,563.8949279785156,564.2813055992126,569.4478440284729,569.8433475971221,None,588.4775126457214,None,589.8826489448547,None,./data/Subject_01/Session_01/Exp_data/rec_QA_run_02_block_000_trial_002.wav,01,01,,A1,True,False,False,True,True,True,True,True,True,No,2,No,No,No,No,2020_Mär_13_1753,nibs_stage_1,3.2.3,59.99482199536268,
,,,,2,0,2,0,0,0,0,0,3,0,3,0,,,,,,,,,,,,,,,,,,,,,591.8945169448853,None,591.8777378082275,593.8779699802399,594.277825641632,None,599.4953117847442,None,618.462469625473,619.4625360965729,619.862606048584,621.8625490665436,./data/Subject_01/Session_01/Exp_data/rec_QA_run_02_block_000_trial_003.wav,01,01,,A1,True,False,False,True,True,True,True,True,True,No,2,No,No,No,No,2020_Mär_13_1753,nibs_stage_1,3.2.3,59.99482199536268,
,,,,2,0,2,0,0,0,0,0,4,0,4,0,,,,,,,,,,,,,,,,,,,,,621.8958399295807,None,621.8792107582092,623.8792929649353,624.2795386791229,627.3632678985596,627.7634776115417,None,648.4805326938629,None,649.8685851097107,None,./data/Subject_01/Session_01/Exp_data/rec_QA_run_02_block_000_trial_004.wav,01,01,,A1,True,False,False,True,True,True,True,True,True,No,2,No,No,No,No,2020_Mär_13_1753,nibs_stage_1,3.2.3,59.99482199536268,
,,,,2,0,2,0,0,0,0,0,5,0,5,0,,,,,,,,,,,,,,,,,,,,,651.8972549438477,None,651.8807507038116,653.8809239864349,654.2665718078613,657.785640001297,658.2145276546478,659.2144780158997,678.4820456981658,None,679.8655769824982,681.8674910068512,./data/Subject_01/Session_01/Exp_data/rec_QA_run_02_block_000_trial_005.wav,01,01,,A1,True,False,False,True,True,True,True,True,True,No,2,No,No,No,No,2020_Mär_13_1753,nibs_stage_1,3.2.3,59.99482199536268,
,,,,2,0,2,0,0,0,0,0,6,0,6,0,,,,,,,,,,,,,,,,,,,,,681.9011991024017,None,681.8841526985168,683.8989970684052,684.2827637672424,688.5658910274506,688.9825737953186,None,708.4836786270141,709.4836831092834,709.8837299346924,None,./data/Subject_01/Session_01/Exp_data/rec_QA_run_02_block_000_trial_006.wav,01,01,,A1,True,False,False,True,True,True,True,True,True,No,2,No,No,No,No,2020_Mär_13_1753,nibs_stage_1,3.2.3,59.99482199536268,
,,,,2,0,2,0,0,0,0,0,7,0,7,0,,,,,,,,,,,,,,,,,,,,,711.9045429229736,None,711.8885746479034,713.9006268978119,714.2885997772216,None,719.202756690979,None,738.4873636245727,None,739.8851189613342,None,./data/Subject_01/Session_01/Exp_data/rec_QA_run_02_block_000_trial_007.wav,01,01,,A1,True,False,False,True,True,True,True,True,True,No,2,No,No,No,No,2020_Mär_13_1753,nibs_stage_1,3.2.3,59.99482199536268,
,,,,2,0,2,0,0,0,0,0,8,0,8,0,,,,,,,,,,,,,,,,,,,,,741.9021780490875,None,741.885729598999,743.904324054718,744.2707777500152,747.3542499542236,747.7568557739257,None,768.4888678073883,None,769.891282081604,None,./data/Subject_01/Session_01/Exp_data/rec_QA_run_02_block_000_trial_008.wav,01,01,,A1,True,False,False,True,True,True,True,True,True,No,2,No,No,No,No,2020_Mär_13_1753,nibs_stage_1,3.2.3,59.99482199536268,
,,,,2,0,2,0,0,0,0,0,9,0,9,0,,,,,,,,,,,,,,,,,,,,,771.9063229560852,None,771.8892198085784,773.8889760971069,774.2889566898345,778.0373780727386,778.4375787258148,None,798.490152645111,None,799.8904709815979,None,./data/Subject_01/Session_01/Exp_data/rec_QA_run_02_block_000_trial_009.wav,01,01,,A1,True,False,False,True,True,True,True,True,True,No,2,No,No,No,No,2020_Mär_13_1753,nibs_stage_1,3.2.3,59.99482199536268,
,,,,2,0,2,0,0,0,0,0,10,0,10,0,,,,,,,,,,,,,,,,,,,,,801.9077250957489,None,801.8904197692871,803.9071159362793,804.27638463974,808.8909509181976,809.3076258182525,None,828.4752467155456,None,829.8920059204102,None,./data/Subject_01/Session_01/Exp_data/rec_QA_run_02_block_000_trial_010.wav,01,01,,A1,True,False,False,True,True,True,True,True,True,No,2,No,No,No,No,2020_Mär_13_1753,nibs_stage_1,3.2.3,59.99482199536268,
,,,,2,0,2,0,0,0,0,0,11,0,11,0,,,,,,,,,,,,,,,,,,,,,831.9255111217499,None,831.9087818145751,833.9255180358887,834.309212732315,836.2256309986115,836.6089866638183,None,858.5268075942993,None,859.9434869289398,None,./data/Subject_01/Session_01/Exp_data/rec_QA_run_02_block_000_trial_011.wav,01,01,,A1,True,False,False,True,True,True,True,True,True,No,2,No,No,No,No,2020_Mär_13_1753,nibs_stage_1,3.2.3,59.99482199536268,
,,,,2,0,2,0,0,0,0,0,12,0,12,0,,,,,,,,,,,,,,,,,,,,,861.9109170436859,None,861.8936257839202,863.9103488922119,864.2937427043914,None,867.9943225860595,None,888.4949377059936,None,889.9117360115051,None,./data/Subject_01/Session_01/Exp_data/rec_QA_run_02_block_000_trial_012.wav,01,01,,A1,True,False,False,True,True,True,True,True,True,No,2,No,No,No,No,2020_Mär_13_1753,nibs_stage_1,3.2.3,59.99482199536268,
,,,,2,0,2,0,0,0,0,0,13,0,13,0,,,,,,,,,,,,,,,,,,,,,891.9125430583954,None,891.8950956344604,893.9119849205017,894.2993076324462,None,898.4287496089935,899.4456470012665,918.4964507102966,None,919.9132280349731,None,./data/Subject_01/Session_01/Exp_data/rec_QA_run_02_block_000_trial_013.wav,01,01,,A1,True,False,False,True,True,True,True,True,True,No,2,No,No,No,No,2020_Mär_13_1753,nibs_stage_1,3.2.3,59.99482199536268,
,,,,2,0,2,0,0,0,0,0,14,0,14,0,,,,,,,,,,,,,,,,,,,,,921.9146621227264,None,921.8967137813568,923.9133880138397,924.2968926906585,927.6469299793243,928.0303125858306,None,948.4980156898498,None,949.9146881103516,None,./data/Subject_01/Session_01/Exp_data/rec_QA_run_02_block_000_trial_014.wav,01,01,,A1,True,False,False,True,True,True,True,True,True,No,2,No,No,No,No,2020_Mär_13_1753,nibs_stage_1,3.2.3,59.99482199536268,
,,,,2,0,2,0,0,0,0,0,15,0,15,0,,,,,,,,,,,,,,,,,,,,,951.9205060005188,None,951.8983808040618,953.9483349323273,954.2983468055725,None,958.631818819046,None,978.4996567249298,None,979.9163289070129,None,./data/Subject_01/Session_01/Exp_data/rec_QA_run_02_block_000_trial_015.wav,01,01,,A1,True,False,False,True,True,True,True,True,True,No,2,No,No,No,No,2020_Mär_13_1753,nibs_stage_1,3.2.3,59.99482199536268,
,,,,2,0,2,0,0,0,0,0,16,0,16,0,,,,,,,,,,,,,,,,,,,,,981.9168400764465,None,981.8996286869049,983.9164910316467,984.2997656345367,987.1875329017639,987.6000166416168,988.6166710853577,1008.5011256217956,1009.5178620815277,1009.9177629947662,None,./data/Subject_01/Session_01/Exp_data/rec_QA_run_02_block_000_trial_016.wav,01,01,,A1,True,False,False,True,True,True,True,True,True,No,2,No,No,No,No,2020_Mär_13_1753,nibs_stage_1,3.2.3,59.99482199536268,
,,,,2,0,2,0,0,0,0,0,17,0,17,0,,,,,,,,,,,,,,,,,,,,,1011.9184410572052,None,1011.901137638092,1013.9180090427399,1014.3012867450714,None,1017.9348416805267,None,1038.5025365829467,None,1039.9192419052124,None,./data/Subject_01/Session_01/Exp_data/rec_QA_run_02_block_000_trial_017.wav,01,01,,A1,True,False,False,True,True,True,True,True,True,No,2,No,No,No,No,2020_Mär_13_1753,nibs_stage_1,3.2.3,59.99482199536268,
,,,,2,0,2,0,0,0,0,0,18,0,18,0,,,,,,,,,,,,,,,,,,,,,1041.9199450016022,None,1041.9026966571807,1043.9194359779358,1044.3027847290039,None,1047.603056716919,1048.6197509765625,1068.5040016651153,1069.5249030590057,1069.920737028122,None,./data/Subject_01/Session_01/Exp_data/rec_QA_run_02_block_000_trial_018.wav,01,01,,A1,True,False,False,True,True,True,True,True,True,No,2,No,No,No,No,2020_Mär_13_1753,nibs_stage_1,3.2.3,59.99482199536268,
,,,,2,0,2,0,0,0,0,0,19,0,19,0,,,,,,,,,,,,,,,,,,,,,1071.9211559295654,None,1071.9042857170105,1073.9210760593414,1074.304314661026,1077.2545609474182,1077.6378508090972,None,1098.5055716514587,None,1099.9222528934479,None,./data/Subject_01/Session_01/Exp_data/rec_QA_run_02_block_000_trial_019.wav,01,01,,A1,True,False,False,True,True,True,True,True,True,No,2,No,No,No,No,2020_Mär_13_1753,nibs_stage_1,3.2.3,59.99482199536268,
,,,,2,0,2,0,0,0,0,0,,,,,1101.9387669563293,None,,,,,,,,,,,,,,,,,,,,,,,,,,,,,,,,01,01,,A1,True,False,False,True,True,True,True,True,True,No,2,No,No,No,No,2020_Mär_13_1753,nibs_stage_1,3.2.3,59.99482199536268,
,,,,2,0,2,0,1,0,1,0,0,0,0,0,,,,,,,,,,,,,,,,,,,,,1132.7779560089111,None,1132.7442036151886,1134.7740459442139,1135.1574817180633,1138.9408829212189,1139.324275779724,1140.344983100891,1159.3586717128753,None,1160.7755711078644,None,./data/Subject_01/Session_01/Exp_data/rec_QA_run_02_block_001_trial_000.wav,01,01,,A1,True,False,False,True,True,True,True,True,True,No,2,No,No,No,No,2020_Mär_13_1753,nibs_stage_1,3.2.3,59.99482199536268,
,,,,2,0,2,0,1,0,1,0,1,0,1,0,,,,,,,,,,,,,,,,,,,,,1162.7764909267426,None,1162.7588017463684,1164.775554895401,1165.1588936328887,1169.9425148963928,1170.3258088111877,None,1189.3601456165313,None,1190.7768609523773,None,./data/Subject_01/Session_01/Exp_data/rec_QA_run_02_block_001_trial_001.wav,01,01,,A1,True,False,False,True,True,True,True,True,True,No,2,No,No,No,No,2020_Mär_13_1753,nibs_stage_1,3.2.3,59.99482199536268,
,,,,2,0,2,0,1,0,1,0,2,0,2,0,,,,,,,,,,,,,,,,,,,,,1192.7934820652008,None,1192.7708006381988,1194.7938249111176,1195.177367734909,1198.193974018097,1198.577257680893,None,1219.3783157348632,1220.395101070404,1220.7974309921265,None,./data/Subject_01/Session_01/Exp_data/rec_QA_run_02_block_001_trial_002.wav,01,01,,A1,True,False,False,True,True,True,True,True,True,No,2,No,No,No,No,2020_Mär_13_1753,nibs_stage_1,3.2.3,59.99482199536268,
,,,,2,0,2,0,1,0,1,0,3,0,3,0,,,,,,,,,,,,,,,,,,,,,1222.7623391151428,None,1222.7451406002044,1224.7620539665222,1225.1452577590942,1228.162096977234,1228.5454316616058,None,1249.3465507507324,None,1250.763188123703,None,./data/Subject_01/Session_01/Exp_data/rec_QA_run_02_block_001_trial_003.wav,01,01,,A1,True,False,False,True,True,True,True,True,True,No,2,No,No,No,No,2020_Mär_13_1753,nibs_stage_1,3.2.3,59.99482199536268,
,,,,2,0,2,0,1,0,1,0,4,0,4,0,,,,,,,,,,,,,,,,,,,,,1252.763354063034,None,1252.7466166496276,1254.763442993164,1255.1468046188354,None,1258.5843556404113,None,1279.3575306415557,None,1280.7647740840912,None,./data/Subject_01/Session_01/Exp_data/rec_QA_run_02_block_001_trial_004.wav,01,01,,A1,True,False,False,True,True,True,True,True,True,No,2,No,No,No,No,2020_Mär_13_1753,nibs_stage_1,3.2.3,59.99482199536268,
,,,,2,0,2,0,1,0,1,0,5,0,5,0,,,,,,,,,,,,,,,,,,,,,1282.7651920318604,None,1282.7481317996978,1284.7689471244812,1285.1482828140258,1289.298770904541,1289.6819177150726,None,1309.3495088100433,None,1310.7662780284882,None,./data/Subject_01/Session_01/Exp_data/rec_QA_run_02_block_001_trial_005.wav,01,01,,A1,True,False,False,True,True,True,True,True,True,No,2,No,No,No,No,2020_Mär_13_1753,nibs_stage_1,3.2.3,59.99482199536268,
,,,,2,0,2,0,1,0,1,0,6,0,6,0,,,,,,,,,,,,,,,,,,,,,1312.76824092865,None,1312.7497287273407,1314.766452074051,1315.1497626781463,None,1319.850095796585,None,1339.351010608673,None,1340.7677080631256,None,./data/Subject_01/Session_01/Exp_data/rec_QA_run_02_block_001_trial_006.wav,01,01,,A1,True,False,False,True,True,True,True,True,True,No,2,No,No,No,No,2020_Mär_13_1753,nibs_stage_1,3.2.3,59.99482199536268,
,,,,2,0,2,0,1,0,1,0,7,0,7,0,,,,,,,,,,,,,,,,,,,,,1342.7883899211884,None,1342.7551546573638,1344.7846500873566,1345.1681735992431,None,1348.801565694809,1349.8181819915771,1369.3691576004028,1370.3859479427338,1370.7859399318695,None,./data/Subject_01/Session_01/Exp_data/rec_QA_run_02_block_001_trial_007.wav,01,01,,A1,True,False,False,True,True,True,True,True,True,No,2,No,No,No,No,2020_Mär_13_1753,nibs_stage_1,3.2.3,59.99482199536268,
,,,,2,0,2,0,1,0,1,0,8,0,8,0,,,,,,,,,,,,,,,,,,,,,1372.7865118980408,None,1372.7692976474762,1374.7861049175262,1375.1694486618042,None,1378.636288690567,None,1399.3707726478576,None,1400.7874789237976,None,./data/Subject_01/Session_01/Exp_data/rec_QA_run_02_block_001_trial_008.wav,01,01,,A1,True,False,False,True,True,True,True,True,True,No,2,No,No,No,No,2020_Mär_13_1753,nibs_stage_1,3.2.3,59.99482199536268,
,,,,2,0,2,0,1,0,1,0,9,0,9,0,,,,,,,,,,,,,,,,,,,,,1402.788151025772,None,1402.7708936214447,1404.7876110076904,1405.1709797859191,None,1408.8045356750488,None,1429.3555717945098,1430.3723819255829,1430.7723779678345,None,./data/Subject_01/Session_01/Exp_data/rec_QA_run_02_block_001_trial_009.wav,01,01,,A1,True,False,False,True,True,True,True,True,True,No,2,No,No,No,No,2020_Mär_13_1753,nibs_stage_1,3.2.3,59.99482199536268,
,,,,2,0,2,0,1,0,1,0,10,0,10,0,,,,,,,,,,,,,,,,,,,,,1432.789123058319,None,1432.7656767845153,1434.7892920970917,1435.172457742691,1440.7894730567932,1441.1728356361389,None,1459.3737216472625,None,1460.7904250621796,None,./data/Subject_01/Session_01/Exp_data/rec_QA_run_02_block_001_trial_010.wav,01,01,,A1,True,False,False,True,True,True,True,True,True,No,2,No,No,No,No,2020_Mär_13_1753,nibs_stage_1,3.2.3,59.99482199536268,
,,,,2,0,2,0,1,0,1,0,11,0,11,0,,,,,,,,,,,,,,,,,,,,,1462.790621995926,None,1462.774071741104,1464.7906839847565,1465.1740146160125,1470.4576449394226,1470.8408887863159,None,1489.375177669525,None,1490.7920188903809,None,./data/Subject_01/Session_01/Exp_data/rec_QA_run_02_block_001_trial_011.wav,01,01,,A1,True,False,False,True,True,True,True,True,True,No,2,No,No,No,No,2020_Mär_13_1753,nibs_stage_1,3.2.3,59.99482199536268,
,,,,2,0,2,0,1,0,1,0,12,0,12,0,,,,,,,,,,,,,,,,,,,,,1492.7925341129303,None,1492.7754977226257,1494.7921419143677,1495.1756346702575,None,1499.4759037971496,1500.4966759681702,1519.37670378685,1520.393415927887,1520.7934379577637,None,./data/Subject_01/Session_01/Exp_data/rec_QA_run_02_block_001_trial_012.wav,01,01,,A1,True,False,False,True,True,True,True,True,True,No,2,No,No,No,No,2020_Mär_13_1753,nibs_stage_1,3.2.3,59.99482199536268,
,,,,2,0,2,0,1,0,1,0,13,0,13,0,,,,,,,,,,,,,,,,,,,,,1522.7938089370728,None,1522.7769186973571,1524.7936279773712,1525.1770368099212,1529.0938839912415,1529.477229642868,None,1549.3822706222534,None,1550.7949469089508,None,./data/Subject_01/Session_01/Exp_data/rec_QA_run_02_block_001_trial_013.wav,01,01,,A1,True,False,False,True,True,True,True,True,True,No,2,No,No,No,No,2020_Mär_13_1753,nibs_stage_1,3.2.3,59.99482199536268,
,,,,2,0,2,0,1,0,1,0,14,0,14,0,,,,,,,,,,,,,,,,,,,,,1552.7623100280762,None,1552.745211648941,1554.7618699073792,1555.145401763916,1557.6620240211487,1558.0453718185424,1559.06205701828,1579.3504157543182,None,1580.763132095337,None,./data/Subject_01/Session_01/Exp_data/rec_QA_run_02_block_001_trial_014.wav,01,01,,A1,True,False,False,True,True,True,True,True,True,No,2,No,No,No,No,2020_Mär_13_1753,nibs_stage_1,3.2.3,59.99482199536268,
,,,,2,0,2,0,1,0,1,0,15,0,15,0,,,,,,,,,,,,,,,,,,,,,1582.7632880210876,None,1582.746528673172,1584.7633879184723,1585.146723794937,None,1589.3801587104797,None,1609.347857761383,None,1610.7646589279175,None,./data/Subject_01/Session_01/Exp_data/rec_QA_run_02_block_001_trial_015.wav,01,01,,A1,True,False,False,True,True,True,True,True,True,No,2,No,No,No,No,2020_Mär_13_1753,nibs_stage_1,3.2.3,59.99482199536268,
,,,,2,0,2,0,1,0,1,0,16,0,16,0,,,,,,,,,,,,,,,,,,,,,1612.7648921012878,None,1612.7480607509613,1614.76908493042,1615.1482007980346,None,1618.4816987991333,None,1639.3493626594543,1640.3661539554596,1640.766233921051,None,./data/Subject_01/Session_01/Exp_data/rec_QA_run_02_block_001_trial_016.wav,01,01,,A1,True,False,False,True,True,True,True,True,True,No,2,No,No,No,No,2020_Mär_13_1753,nibs_stage_1,3.2.3,59.99482199536268,
,,,,2,0,2,0,1,0,1,0,17,0,17,0,,,,,,,,,,,,,,,,,,,,,1642.7668509483337,None,1642.7496386051178,1644.7971730232239,1645.14716963768,None,1648.1499805927276,None,1669.350951719284,None,1670.7676329612732,None,./data/Subject_01/Session_01/Exp_data/rec_QA_run_02_block_001_trial_017.wav,01,01,,A1,True,False,False,True,True,True,True,True,True,No,2,No,No,No,No,2020_Mär_13_1753,nibs_stage_1,3.2.3,59.99482199536268,
,,,,2,0,2,0,1,0,1,0,18,0,18,0,,,,,,,,,,,,,,,,,,,,,1672.7912740707397,None,1672.754954624176,1674.7845599651337,1675.1719027042388,None,1678.8013666152954,None,1699.3690727233886,None,1700.7565999031067,None,./data/Subject_01/Session_01/Exp_data/rec_QA_run_02_block_001_trial_018.wav,01,01,,A1,True,False,False,True,True,True,True,True,True,No,2,No,No,No,No,2020_Mär_13_1753,nibs_stage_1,3.2.3,59.99482199536268,
,,,,2,0,2,0,1,0,1,0,19,0,19,0,,,,,,,,,,,,,,,,,,,,,1702.786041021347,None,1702.7693636894226,1704.7860391139984,1705.1694517612457,1708.8863079547882,1709.2696316719055,None,1729.3706207752227,None,1730.7873120307922,None,./data/Subject_01/Session_01/Exp_data/rec_QA_run_02_block_001_trial_019.wav,01,01,,A1,True,False,False,True,True,True,True,True,True,No,2,No,No,No,No,2020_Mär_13_1753,nibs_stage_1,3.2.3,59.99482199536268,
,,,,2,0,2,0,1,0,1,0,,,,,1732.803740978241,None,,,,,,,,,,,,,,,,,,,,,,,,,,,,,,,,01,01,,A1,True,False,False,True,True,True,True,True,True,No,2,No,No,No,No,2020_Mär_13_1753,nibs_stage_1,3.2.3,59.99482199536268,
